<?xml version="1.0" encoding="UTF-8"?>

<Bundle xmlns="http://hl7.org/fhir">
  <id value="Example-DAK-onart"/>
  <type value="transaction"/>
  <entry>
    <fullUrl value="https://path-global-health.github.io/MERindicators/Patient/Patient-DAK-onart"/>
    <resource>
      <Patient>
        <id value="Patient-DAK-onart"/>
        <text>
          <status value="generated"/><div xmlns="http://www.w3.org/1999/xhtml"><p><b>Generated Narrative: Patient</b><a name="Patient-DAK-onart"> </a></p><div style="display: inline-block; background-color: #d9e0e7; padding: 6px; margin: 4px; border: 1px solid #8da1b4; border-radius: 5px; line-height: 60%"><p style="margin-bottom: 0px">Resource Patient &quot;Patient-DAK-onart&quot; </p></div><p><b>name</b>: Mittens Cat</p><p><b>gender</b>: female</p><p><b>birthDate</b>: 1985-01-01</p></div>
        </text>
        <name>
          <text value="Mittens Cat"/>
          <family value="Cat"/>
          <given value="Mittens"/>
        </name>
        <gender value="female"/>
        <birthDate value="1985-01-01"/>
      </Patient>
    </resource>
    <request>
      <method value="PUT"/>
      <url value="Patient/Patient-DAK-onart"/>
    </request>
  </entry>
  <entry>
    <fullUrl value="https://path-global-health.github.io/MERindicators/Patient/Condition-DAK-onart-hiv"/>
    <resource>
      <Condition>
        <id value="Condition-DAK-onart-hiv"/>
        <text>
          <status value="generated"/><div xmlns="http://www.w3.org/1999/xhtml"><p><b>Generated Narrative: Condition</b><a name="Condition-DAK-onart-hiv"> </a></p><div style="display: inline-block; background-color: #d9e0e7; padding: 6px; margin: 4px; border: 1px solid #8da1b4; border-radius: 5px; line-height: 60%"><p style="margin-bottom: 0px">Resource Condition &quot;Condition-DAK-onart-hiv&quot; </p></div><p><b>clinicalStatus</b>: Active <span style="background: LightGoldenRodYellow; margin: 4px; border: 1px solid khaki"> (<a href="http://terminology.hl7.org/5.2.0/CodeSystem-condition-clinical.html">Condition Clinical Status Codes</a>#active)</span></p><p><b>verificationStatus</b>: Confirmed <span style="background: LightGoldenRodYellow; margin: 4px; border: 1px solid khaki"> (<a href="http://terminology.hl7.org/5.2.0/CodeSystem-condition-ver-status.html">ConditionVerificationStatus</a>#confirmed)</span></p><p><b>code</b>: World Health Organization 2007 Human immunodeficiency virus infection clinical stage 1 (finding) <span style="background: LightGoldenRodYellow; margin: 4px; border: 1px solid khaki"> (<a href="https://browser.ihtsdotools.org/">SNOMED CT</a>#737378009)</span></p><p><b>subject</b>: <a href="#Patient_Patient-DAK-onart">See above (Patient/Patient-DAK-onart)</a></p><p><b>onset</b>: 2020-01-01</p></div>
        </text>
        <clinicalStatus>
          <coding>
            <system value="http://terminology.hl7.org/CodeSystem/condition-clinical"/>
            <code value="active"/>
          </coding>
        </clinicalStatus>
        <verificationStatus>
          <coding>
            <system value="http://terminology.hl7.org/CodeSystem/condition-ver-status"/>
            <code value="confirmed"/>
          </coding>
        </verificationStatus>
        <code>
          <coding>
            <system value="http://snomed.info/sct"/>
            <code value="737378009"/>
            <display value="World Health Organization 2007 Human immunodeficiency virus infection clinical stage 1 (finding)"/>
          </coding>
        </code>
        <subject>
          <reference value="Patient/Patient-DAK-onart"/>
        </subject>
        <onsetDateTime value="2020-01-01"/>
      </Condition>
    </resource>
    <request>
      <method value="PUT"/>
      <url value="Condition/Condition-DAK-onart-hiv"/>
    </request>
  </entry>
  <entry>
    <fullUrl value="https://path-global-health.github.io/MERindicators/Patient/Condition-DAK-onart-art"/>
    <resource>
      <Condition>
        <id value="Condition-DAK-onart-art"/>
        <text>
          <status value="generated"/><div xmlns="http://www.w3.org/1999/xhtml"><p><b>Generated Narrative: Condition</b><a name="Condition-DAK-onart-art"> </a></p><div style="display: inline-block; background-color: #d9e0e7; padding: 6px; margin: 4px; border: 1px solid #8da1b4; border-radius: 5px; line-height: 60%"><p style="margin-bottom: 0px">Resource Condition &quot;Condition-DAK-onart-art&quot; </p></div><p><b>clinicalStatus</b>: Active <span style="background: LightGoldenRodYellow; margin: 4px; border: 1px solid khaki"> (<a href="http://terminology.hl7.org/5.2.0/CodeSystem-condition-clinical.html">Condition Clinical Status Codes</a>#active)</span></p><p><b>verificationStatus</b>: Confirmed <span style="background: LightGoldenRodYellow; margin: 4px; border: 1px solid khaki"> (<a href="http://terminology.hl7.org/5.2.0/CodeSystem-condition-ver-status.html">ConditionVerificationStatus</a>#confirmed)</span></p><p><b>code</b>: Drug prophylaxis (procedure) <span style="background: LightGoldenRodYellow; margin: 4px; border: 1px solid khaki"> (<a href="https://browser.ihtsdotools.org/">SNOMED CT</a>#182929008)</span></p><p><b>subject</b>: <a href="#Patient_Patient-DAK-onart">See above (Patient/Patient-DAK-onart)</a></p><p><b>onset</b>: 2020-01-01</p></div>
        </text>
        <clinicalStatus>
          <coding>
            <system value="http://terminology.hl7.org/CodeSystem/condition-clinical"/>
            <code value="active"/>
          </coding>
        </clinicalStatus>
        <verificationStatus>
          <coding>
            <system value="http://terminology.hl7.org/CodeSystem/condition-ver-status"/>
            <code value="confirmed"/>
          </coding>
        </verificationStatus>
        <code>
          <coding>
            <system value="http://snomed.info/sct"/>
            <code value="182929008"/>
            <display value="Drug prophylaxis (procedure)"/>
          </coding>
        </code>
        <subject>
          <reference value="Patient/Patient-DAK-onart"/>
        </subject>
        <onsetDateTime value="2020-01-01"/>
      </Condition>
    </resource>
    <request>
      <method value="PUT"/>
      <url value="Condition/Condition-DAK-onart-art"/>
    </request>
  </entry>
  <entry>
    <fullUrl value="https://path-global-health.github.io/MERindicators/Patient/Encounter-DAK-onart"/>
    <resource>
      <Encounter>
        <id value="Encounter-DAK-onart"/>
        <text>
          <status value="generated"/><div xmlns="http://www.w3.org/1999/xhtml"><p><b>Generated Narrative: Encounter</b><a name="Encounter-DAK-onart"> </a></p><div style="display: inline-block; background-color: #d9e0e7; padding: 6px; margin: 4px; border: 1px solid #8da1b4; border-radius: 5px; line-height: 60%"><p style="margin-bottom: 0px">Resource Encounter &quot;Encounter-DAK-onart&quot; </p></div><p><b>status</b>: finished</p><p><b>class</b>: inpatient acute (Details: http://terminology.hl7.org/CodeSystem/v3-ActCode code ACUTE = 'inpatient acute', stated as 'null')</p><p><b>subject</b>: <a href="#Patient_Patient-DAK-onart">See above (Patient/Patient-DAK-onart)</a></p><p><b>period</b>: 2023-07-03 --&gt; 2023-07-03</p><h3>Locations</h3><table class="grid"><tr><td style="display: none">-</td><td><b>Location</b></td></tr><tr><td style="display: none">*</td><td><a href="Location-Location-DAK.html">Location/Location-DAK</a> &quot;DAK Location&quot;</td></tr></table><p><b>serviceProvider</b>: <a href="Organization-Organization-DAK.html">Organization/Organization-DAK</a> &quot;DAK Organization&quot;</p></div>
        </text>
        <status value="finished"/>
        <class>
          <system value="http://terminology.hl7.org/CodeSystem/v3-ActCode"/>
          <code value="ACUTE"/>
        </class>
        <subject>
          <reference value="Patient/Patient-DAK-onart"/>
        </subject>
        <period>
          <start value="2023-07-03"/>
          <end value="2023-07-03"/>
        </period>
        <location>
          <location>
            <reference value="Location/Location-DAK"/>
          </location>
        </location>
        <serviceProvider>
          <reference value="Organization/Organization-DAK"/>
        </serviceProvider>
      </Encounter>
    </resource>
    <request>
      <method value="PUT"/>
      <url value="Encounter/Encounter-DAK-onartonart"/>
    </request>
  </entry>
  <entry>
    <fullUrl value="https://path-global-health.github.io/MERindicators/Patient/Observation-DAK-onart"/>
    <resource>
      <Observation>
        <id value="Observation-DAK-onart"/>
        <text>
          <status value="generated"/><div xmlns="http://www.w3.org/1999/xhtml"><p><b>Generated Narrative: Observation</b><a name="Observation-DAK-onart"> </a></p><div style="display: inline-block; background-color: #d9e0e7; padding: 6px; margin: 4px; border: 1px solid #8da1b4; border-radius: 5px; line-height: 60%"><p style="margin-bottom: 0px">Resource Observation &quot;Observation-DAK-onart&quot; </p></div><p><b>status</b>: final</p><p><b>code</b>: Drug prophylaxis (procedure) <span style="background: LightGoldenRodYellow; margin: 4px; border: 1px solid khaki"> (<a href="https://browser.ihtsdotools.org/">SNOMED CT</a>#182929008)</span></p><p><b>subject</b>: <a href="#Patient_Patient-DAK-onart">See above (Patient/Patient-DAK-onart)</a></p><p><b>encounter</b>: <a href="#Encounter_Encounter-DAK-onart">See above (Encounter/Encounter-DAK-onart)</a></p><p><b>effective</b>: 2023-07-03</p><p><b>value</b>: true</p></div>
        </text>
        <status value="final"/>
        <code>
          <coding>
            <system value="http://snomed.info/sct"/>
            <code value="182929008"/>
            <display value="Drug prophylaxis (procedure)"/>
          </coding>
        </code>
        <subject>
          <reference value="Patient/Patient-DAK-onart"/>
        </subject>
        <encounter>
          <reference value="Encounter/Encounter-DAK-onart"/>
        </encounter>
        <effectiveDateTime value="2023-07-03"/>
        <valueBoolean value="true"/>
      </Observation>
    </resource>
    <request>
      <method value="PUT"/>
      <url value="Observation/Observation-DAK-onart"/>
    </request>
  </entry>
  <entry>
    <fullUrl value="https://path-global-health.github.io/MERindicators/Patient/Observation-DAK-onart-dispense"/>
    <resource>
      <Observation>
        <id value="Observation-DAK-onart-dispense"/>
        <text>
          <status value="generated"/><div xmlns="http://www.w3.org/1999/xhtml"><p><b>Generated Narrative: Observation</b><a name="Observation-DAK-onart-dispense"> </a></p><div style="display: inline-block; background-color: #d9e0e7; padding: 6px; margin: 4px; border: 1px solid #8da1b4; border-radius: 5px; line-height: 60%"><p style="margin-bottom: 0px">Resource Observation &quot;Observation-DAK-onart-dispense&quot; </p></div><p><b>status</b>: final</p><p><b>code</b>: Day (qualifier value) <span style="background: LightGoldenRodYellow; margin: 4px; border: 1px solid khaki"> (<a href="https://browser.ihtsdotools.org/">SNOMED CT</a>#258703001)</span></p><p><b>subject</b>: <a href="#Patient_Patient-DAK-onart">See above (Patient/Patient-DAK-onart)</a></p><p><b>encounter</b>: <a href="#Encounter_Encounter-DAK-onart">See above (Encounter/Encounter-DAK-onart)</a></p><p><b>effective</b>: 2023-07-03</p><p><b>value</b>: 90</p></div>
        </text>
        <status value="final"/>
        <code>
          <coding>
            <system value="http://snomed.info/sct"/>
            <code value="258703001"/>
            <display value="Day (qualifier value)"/>
          </coding>
        </code>
        <subject>
          <reference value="Patient/Patient-DAK-onart"/>
        </subject>
        <encounter>
          <reference value="Encounter/Encounter-DAK-onart"/>
        </encounter>
        <effectiveDateTime value="2023-07-03"/>
        <valueInteger value="90"/>
      </Observation>
    </resource>
    <request>
      <method value="PUT"/>
      <url value="Observation/Observation-DAK-onart-dispense"/>
    </request>
  </entry>
  <entry>
    <fullUrl value="https://path-global-health.github.io/MERindicators/Patient/MedicationRequest-DAK-onart"/>
    <resource>
      <MedicationRequest>
        <id value="MedicationRequest-DAK-onart"/>
        <text>
          <status value="generated"/><div xmlns="http://www.w3.org/1999/xhtml"><p><b>Generated Narrative: MedicationRequest</b><a name="MedicationRequest-DAK-onart"> </a></p><div style="display: inline-block; background-color: #d9e0e7; padding: 6px; margin: 4px; border: 1px solid #8da1b4; border-radius: 5px; line-height: 60%"><p style="margin-bottom: 0px">Resource MedicationRequest &quot;MedicationRequest-DAK-onart&quot; </p></div><p><b>status</b>: active</p><p><b>intent</b>: order</p><p><b>medication</b>: Abacavir <span style="background: LightGoldenRodYellow; margin: 4px; border: 1px solid khaki"> (<a href="CodeSystem-DAKICD11.html">ICD-11 codes from the HIV DAK</a>#XM35P4)</span></p><p><b>subject</b>: <a href="#Patient_Patient-DAK-onart">See above (Patient/Patient-DAK-onart)</a></p><p><b>authoredOn</b>: 2023-07-03</p></div>
        </text>
        <status value="active"/>
        <intent value="order"/>
        <medicationCodeableConcept>
          <coding>
            <system value="http://hl7.org/fhir/sid/icd-11"/>
            <code value="XM35P4"/>
            <display value="Abacavir"/>
          </coding>
        </medicationCodeableConcept>
        <subject>
          <reference value="Patient/Patient-DAK-onart"/>
        </subject>
        <authoredOn value="2023-07-03"/>
      </MedicationRequest>
    </resource>
    <request>
      <method value="PUT"/>
      <url value="MedicationRequest/MedicationRequest-DAK-onart"/>
    </request>
  </entry>
</Bundle>