<?xml version="1.0" encoding="UTF-8"?>

<Bundle xmlns="http://hl7.org/fhir">
  <id value="ExampleCIEL"/>
  <type value="transaction"/>
  <entry>
    <fullUrl value="https://path-global-health.github.io/MERindicators/Patient/PatientCIEL"/>
    <resource>
      <Patient>
        <id value="PatientCIEL"/>
        <text>
          <status value="generated"/><div xmlns="http://www.w3.org/1999/xhtml"><p><b>Generated Narrative: Patient</b><a name="PatientCIEL"> </a></p><div style="display: inline-block; background-color: #d9e0e7; padding: 6px; margin: 4px; border: 1px solid #8da1b4; border-radius: 5px; line-height: 60%"><p style="margin-bottom: 0px">Resource Patient &quot;PatientCIEL&quot; </p></div><p><b>identifier</b>: OpenMRS ID: 1234567 (use: OFFICIAL)</p><p><b>name</b>: Mittens Cat</p><p><b>gender</b>: female</p><p><b>birthDate</b>: 1985-01-01</p></div>
        </text>
        <identifier>
          <extension url="http://fhir.openmrs.org/ext/patient/identifier#location">
            <valueReference>
              <reference value="Location/LocationCIEL"/>
              <type value="Location"/>
              <display value="Inpatient Ward"/>
            </valueReference>
          </extension>
          <use value="official"/>
          <type>
            <coding>
              <system value="http://terminology.hl7.org/CodeSystem/v2-0203"/>
              <code value="MR"/>
            </coding>
            <text value="OpenMRS ID"/>
          </type>
          <value value="1234567"/>
        </identifier>
        <name>
          <text value="Mittens Cat"/>
          <family value="Cat"/>
          <given value="Mittens"/>
        </name>
        <gender value="female"/>
        <birthDate value="1985-01-01"/>
      </Patient>
    </resource>
    <request>
      <method value="PUT"/>
      <url value="Patient/PatientCIEL"/>
    </request>
  </entry>
  <entry>
    <fullUrl value="https://path-global-health.github.io/MERindicators/Organization/OrganizationCIEL"/>
    <resource>
      <Organization>
        <id value="OrganizationCIEL"/>
        <text>
          <status value="generated"/><div xmlns="http://www.w3.org/1999/xhtml"><p><b>Generated Narrative: Organization</b><a name="OrganizationCIEL"> </a></p><div style="display: inline-block; background-color: #d9e0e7; padding: 6px; margin: 4px; border: 1px solid #8da1b4; border-radius: 5px; line-height: 60%"><p style="margin-bottom: 0px">Resource Organization &quot;OrganizationCIEL&quot; </p></div><p><b>name</b>: OrganizationCIEL Government Hospital</p></div>
        </text>
        <name value="OrganizationCIEL Government Hospital"/>
      </Organization>
    </resource>
    <request>
      <method value="PUT"/>
      <url value="Organization/OrganizationCIEL"/>
    </request>
  </entry>
  <entry>
    <fullUrl value="https://path-global-health.github.io/MERindicators/Location/LocationCIEL"/>
    <resource>
      <Location>
        <id value="LocationCIEL"/>
        <text>
          <status value="generated"/><div xmlns="http://www.w3.org/1999/xhtml"><p><b>Generated Narrative: Location</b><a name="LocationCIEL"> </a></p><div style="display: inline-block; background-color: #d9e0e7; padding: 6px; margin: 4px; border: 1px solid #8da1b4; border-radius: 5px; line-height: 60%"><p style="margin-bottom: 0px">Resource Location &quot;LocationCIEL&quot; </p></div></div>
        </text>
      </Location>
    </resource>
    <request>
      <method value="PUT"/>
      <url value="Location/LocationCIEL"/>
    </request>
  </entry>
  <entry>
    <fullUrl value="https://path-global-health.github.io/MERindicators/Condition/Condition-PregnancyCIEL"/>
    <resource>
      <Condition>
        <id value="Condition-PregnancyCIEL"/>
        <text>
          <status value="generated"/><div xmlns="http://www.w3.org/1999/xhtml"><p><b>Generated Narrative: Condition</b><a name="Condition-PregnancyCIEL"> </a></p><div style="display: inline-block; background-color: #d9e0e7; padding: 6px; margin: 4px; border: 1px solid #8da1b4; border-radius: 5px; line-height: 60%"><p style="margin-bottom: 0px">Resource Condition &quot;Condition-PregnancyCIEL&quot; </p></div><p><b>clinicalStatus</b>: Inactive <span style="background: LightGoldenRodYellow; margin: 4px; border: 1px solid khaki"> (<a href="http://terminology.hl7.org/5.2.0/CodeSystem-condition-clinical.html">Condition Clinical Status Codes</a>#inactive)</span></p><p><b>verificationStatus</b>: Confirmed <span style="background: LightGoldenRodYellow; margin: 4px; border: 1px solid khaki"> (<a href="http://terminology.hl7.org/5.2.0/CodeSystem-condition-ver-status.html">ConditionVerificationStatus</a>#confirmed)</span></p><p><b>code</b>: Pregnancy (finding) <span style="background: LightGoldenRodYellow; margin: 4px; border: 1px solid khaki"> (<a href="https://browser.ihtsdotools.org/">SNOMED CT</a>#77386006)</span></p><p><b>subject</b>: <a href="#Patient_PatientCIEL">See above (Patient/PatientCIEL)</a></p><p><b>onset</b>: 2020-01-01</p><p><b>abatement</b>: 2020-09-30</p></div>
        </text>
        <clinicalStatus>
          <coding>
            <system value="http://terminology.hl7.org/CodeSystem/condition-clinical"/>
            <code value="inactive"/>
          </coding>
        </clinicalStatus>
        <verificationStatus>
          <coding>
            <system value="http://terminology.hl7.org/CodeSystem/condition-ver-status"/>
            <code value="confirmed"/>
          </coding>
        </verificationStatus>
        <code>
          <coding>
            <system value="http://snomed.info/sct"/>
            <code value="77386006"/>
            <display value="Pregnancy (finding)"/>
          </coding>
        </code>
        <subject>
          <reference value="Patient/PatientCIEL"/>
        </subject>
        <onsetDateTime value="2020-01-01"/>
        <abatementDateTime value="2020-09-30"/>
      </Condition>
    </resource>
    <request>
      <method value="PUT"/>
      <url value="Condition/Condition-PregnancyCIEL"/>
    </request>
  </entry>
  <entry>
    <fullUrl value="https://path-global-health.github.io/MERindicators/Encounter/EncounterCIEL"/>
    <resource>
      <Encounter>
        <id value="EncounterCIEL"/>
        <text>
          <status value="generated"/><div xmlns="http://www.w3.org/1999/xhtml"><p><b>Generated Narrative: Encounter</b><a name="EncounterCIEL"> </a></p><div style="display: inline-block; background-color: #d9e0e7; padding: 6px; margin: 4px; border: 1px solid #8da1b4; border-radius: 5px; line-height: 60%"><p style="margin-bottom: 0px">Resource Encounter &quot;EncounterCIEL&quot; </p></div><p><b>status</b>: finished</p><p><b>class</b>: inpatient acute (Details: http://terminology.hl7.org/CodeSystem/v3-ActCode code ACUTE = 'inpatient acute', stated as 'null')</p><p><b>subject</b>: <a href="#Patient_PatientCIEL">See above (Patient/PatientCIEL)</a></p><p><b>period</b>: 2011-01-01 --&gt; 2011-01-01</p><h3>Locations</h3><table class="grid"><tr><td style="display: none">-</td><td><b>Location</b></td></tr><tr><td style="display: none">*</td><td><a href="#Location_LocationCIEL">See above (Location/LocationCIEL)</a></td></tr></table></div>
        </text>
        <status value="finished"/>
        <class>
          <system value="http://terminology.hl7.org/CodeSystem/v3-ActCode"/>
          <code value="ACUTE"/>
        </class>
        <subject>
          <reference value="Patient/PatientCIEL"/>
        </subject>
        <period>
          <start value="2011-01-01"/>
          <end value="2011-01-01"/>
        </period>
        <location>
          <location>
            <reference value="Location/LocationCIEL"/>
          </location>
        </location>
      </Encounter>
    </resource>
    <request>
      <method value="PUT"/>
      <url value="Encounter/EncounterCIEL"/>
    </request>
  </entry>
  <entry>
    <fullUrl value="https://path-global-health.github.io/MERindicators/Observation/ObservationCIEL"/>
    <resource>
      <Observation>
        <id value="ObservationCIEL"/>
        <text>
          <status value="generated"/><div xmlns="http://www.w3.org/1999/xhtml"><p><b>Generated Narrative: Observation</b><a name="ObservationCIEL"> </a></p><div style="display: inline-block; background-color: #d9e0e7; padding: 6px; margin: 4px; border: 1px solid #8da1b4; border-radius: 5px; line-height: 60%"><p style="margin-bottom: 0px">Resource Observation &quot;ObservationCIEL&quot; </p></div><p><b>status</b>: final</p><p><b>code</b>: CURRENTLY TAKING ARV <span style="background: LightGoldenRodYellow; margin: 4px; border: 1px solid khaki"> (<a href="CodeSystem-CIEL.html">CIEL</a>#160119)</span></p><p><b>subject</b>: <a href="#Patient_PatientCIEL">See above (Patient/PatientCIEL)</a></p><p><b>value</b>: YES <span style="background: LightGoldenRodYellow; margin: 4px; border: 1px solid khaki"> (<a href="CodeSystem-CIEL.html">CIEL</a>#1065)</span></p></div>
        </text>
        <status value="final"/>
        <code>
          <coding>
            <system value="https://openconceptlab.org/orgs/CIEL/sources/CIEL"/>
            <code value="160119"/>
            <display value="CURRENTLY TAKING ARV"/>
          </coding>
        </code>
        <subject>
          <reference value="Patient/PatientCIEL"/>
        </subject>
        <valueCodeableConcept>
          <coding>
            <system value="https://openconceptlab.org/orgs/CIEL/sources/CIEL"/>
            <code value="1065"/>
            <display value="YES"/>
          </coding>
        </valueCodeableConcept>
      </Observation>
    </resource>
    <request>
      <method value="PUT"/>
      <url value="Observation/ObservationCIEL"/>
    </request>
  </entry>
</Bundle>